{
  "resourceType":"Bundle",
  "type":"transaction",
  "entry":[
    {
      "fullUrl":"urn:uuid:1caeaa71-0ac3-4b42-8d15-86b0b2b1cce9",
      "resource":{
        "resourceType":"Patient",
        "id":"1caeaa71-0ac3-4b42-8d15-86b0b2b1cce9",
        "identifier":[
          {
            "type":{
              "coding":[
                {
                  "system":"http://hl7.org/fhir/v2/0203",
                  "code":"MR",
                  "display":"Medical Record Number"
                }
              ],
              "text":"Medical Record Number"
            },
            "value":"bc8f60f4cbde3d6c28974971b6880793"
          }
        ],
        "name":[
          {
            "family":[
              "Peters"
            ],
            "given":[
              "John"
            ]
          }
        ],
        "gender":"male",
        "birthDate":"1991-02-01"
      },
      "request":{
        "method":"PUT",
        "url":"Patient?identifier=bc8f60f4cbde3d6c28974971b6880793"
      }
    },
    {
      "fullUrl":"urn:uuid:336e9277-e7d5-4c04-a2c6-910a7dfb704d",
      "resource":{
        "resourceType":"Encounter",
        "id":"336e9277-e7d5-4c04-a2c6-910a7dfb704d",
        "status":"finished",
        "type":[
          {
            "coding":[
              {
                "system":"http://www.ama-assn.org/go/cpt",
                "code":"99201"
              }
            ],
            "text":"Encounter, Performed: Office Visit (Code List: 2.16.840.1.113883.3.464.1003.101.12.1001)"
          }
        ],
        "patient":{
          "reference":"urn:uuid:1caeaa71-0ac3-4b42-8d15-86b0b2b1cce9"
        },
        "period":{
          "start":"2011-11-01T08:00:00-04:00",
          "end":"2011-11-01T09:00:00-04:00"
        }
      },
      "request":{
        "method":"PUT",
        "url":"Encounter?date=sa2011-11-01T07%3A59%3A59\u0026date=lt2011-11-01T08%3A00%3A01\u0026patient=urn%3Auuid%3A1caeaa71-0ac3-4b42-8d15-86b0b2b1cce9\u0026type=http%3A%2F%2Fwww.ama-assn.org%2Fgo%2Fcpt%7C99201"
      }
    },
    {
      "fullUrl":"urn:uuid:2c69d00a-c8b7-43b1-a960-a2551fdf9920",
      "resource":{
        "resourceType":"Encounter",
        "id":"2c69d00a-c8b7-43b1-a960-a2551fdf9920",
        "status":"finished",
        "type":[
          {
            "coding":[
              {
                "system":"http://www.ama-assn.org/go/cpt",
                "code":"99201"
              }
            ],
            "text":"Encounter, Performed: Office Visit (Code List: 2.16.840.1.113883.3.464.1003.101.12.1001)"
          }
        ],
        "patient":{
          "reference":"urn:uuid:1caeaa71-0ac3-4b42-8d15-86b0b2b1cce9"
        },
        "period":{
          "start":"2012-10-01T08:00:00-04:00",
          "end":"2012-10-01T09:00:00-04:00"
        }
      },
      "request":{
        "method":"PUT",
        "url":"Encounter?date=sa2012-10-01T07%3A59%3A59\u0026date=lt2012-10-01T08%3A00%3A01\u0026patient=urn%3Auuid%3A1caeaa71-0ac3-4b42-8d15-86b0b2b1cce9\u0026type=http%3A%2F%2Fwww.ama-assn.org%2Fgo%2Fcpt%7C99201"
      }
    },
    {
      "fullUrl":"urn:uuid:944c0a13-9daa-4070-9b5b-838cbe1b0fd3",
      "resource":{
        "resourceType":"Encounter",
        "id":"944c0a13-9daa-4070-9b5b-838cbe1b0fd3",
        "status":"finished",
        "type":[
          {
            "coding":[
              {
                "system":"http://www.ama-assn.org/go/cpt",
                "code":"99201"
              }
            ],
            "text":"Encounter, Performed: Office Visit (Code List: 2.16.840.1.113883.3.464.1003.101.12.1001)"
          }
        ],
        "patient":{
          "reference":"urn:uuid:1caeaa71-0ac3-4b42-8d15-86b0b2b1cce9"
        },
        "period":{
          "start":"2012-11-01T08:00:00-04:00",
          "end":"2012-11-01T09:00:00-04:00"
        }
      },
      "request":{
        "method":"PUT",
        "url":"Encounter?date=sa2012-11-01T07%3A59%3A59\u0026date=lt2012-11-01T08%3A00%3A01\u0026patient=urn%3Auuid%3A1caeaa71-0ac3-4b42-8d15-86b0b2b1cce9\u0026type=http%3A%2F%2Fwww.ama-assn.org%2Fgo%2Fcpt%7C99201"
      }
    },
    {
      "fullUrl":"urn:uuid:8ffbfdbd-f153-4095-84dd-c60461f94a3e",
      "resource":{
        "resourceType":"Encounter",
        "id":"8ffbfdbd-f153-4095-84dd-c60461f94a3e",
        "status":"finished",
        "type":[
          {
            "coding":[
              {
                "system":"http://snomed.info/sct",
                "code":"171047005"
              }
            ],
            "text":"Encounter, Performed: Alcohol and Drug Dependence Treatment (Code List: 2.16.840.1.113883.3.464.1003.106.12.1005)"
          }
        ],
        "patient":{
          "reference":"urn:uuid:1caeaa71-0ac3-4b42-8d15-86b0b2b1cce9"
        },
        "period":{
          "start":"2012-11-01T08:45:00-04:00",
          "end":"2012-11-01T09:00:00-04:00"
        }
      },
      "request":{
        "method":"PUT",
        "url":"Encounter?date=sa2012-11-01T08%3A44%3A59\u0026date=lt2012-11-01T08%3A45%3A01\u0026patient=urn%3Auuid%3A1caeaa71-0ac3-4b42-8d15-86b0b2b1cce9\u0026type=http%3A%2F%2Fsnomed.info%2Fsct%7C171047005"
      }
    },
    {
      "fullUrl":"urn:uuid:655ab16f-c9f8-4e84-8d91-3c4c9353fc64",
      "resource":{
        "resourceType":"Condition",
        "id":"655ab16f-c9f8-4e84-8d91-3c4c9353fc64",
        "patient":{
          "reference":"urn:uuid:1caeaa71-0ac3-4b42-8d15-86b0b2b1cce9"
        },
        "code":{
          "coding":[
            {
              "system":"http://snomed.info/sct",
              "code":"10091002"
            },
            {
              "system":"http://hl7.org/fhir/sid/icd-9",
              "code":"428.0"
            },
            {
              "system":"http://hl7.org/fhir/sid/icd-10",
              "code":"I50.1"
            }
          ],
          "text":"Diagnosis, Active: Heart Failure (Code List: 2.16.840.1.113883.3.526.3.376)"
        },
        "clinicalStatus":"active",
        "verificationStatus":"confirmed",
        "onsetDateTime":"2012-03-01T07:00:00-05:00"
      },
      "request":{
        "method":"PUT",
        "url":"Condition?code=http%3A%2F%2Fhl7.org%2Ffhir%2Fsid%2Ficd-10%7CI50.1%2Chttp%3A%2F%2Fhl7.org%2Ffhir%2Fsid%2Ficd-9%7C428.0%2Chttp%3A%2F%2Fsnomed.info%2Fsct%7C10091002\u0026onset=2012-03-01T07%3A00%3A00\u0026patient=urn%3Auuid%3A1caeaa71-0ac3-4b42-8d15-86b0b2b1cce9"
      }
    },
    {
      "fullUrl":"urn:uuid:27569bfd-e46f-460a-9576-1a7571cc1f57",
      "resource":{
        "resourceType":"Condition",
        "id":"27569bfd-e46f-460a-9576-1a7571cc1f57",
        "patient":{
          "reference":"urn:uuid:1caeaa71-0ac3-4b42-8d15-86b0b2b1cce9"
        },
        "code":{
          "coding":[
            {
              "system":"http://snomed.info/sct",
              "code":"981000124106"
            }
          ],
          "text":"Diagnosis, Active: Moderate or Severe LVSD (Code List: 2.16.840.1.113883.3.526.3.1090)"
        },
        "clinicalStatus":"active",
        "verificationStatus":"confirmed",
        "onsetDateTime":"2012-03-01T07:05:00-05:00"
      },
      "request":{
        "method":"PUT",
        "url":"Condition?code=http%3A%2F%2Fsnomed.info%2Fsct%7C981000124106\u0026onset=2012-03-01T07%3A05%3A00\u0026patient=urn%3Auuid%3A1caeaa71-0ac3-4b42-8d15-86b0b2b1cce9"
      }
    },
    {
      "fullUrl":"urn:uuid:b1345484-0786-48b0-a4fe-1988199a0b8b",
      "resource":{
        "resourceType":"Condition",
        "id":"b1345484-0786-48b0-a4fe-1988199a0b8b",
        "patient":{
          "reference":"urn:uuid:1caeaa71-0ac3-4b42-8d15-86b0b2b1cce9"
        },
        "code":{
          "coding":[
            {
              "system":"http://hl7.org/fhir/sid/icd-10",
              "code":"I20.0"
            },
            {
              "system":"http://snomed.info/sct",
              "code":"123641001"
            },
            {
              "system":"http://hl7.org/fhir/sid/icd-9",
              "code":"411.0"
            }
          ],
          "text":"Diagnosis, Active: Ischemic Vascular Disease (Code List: 2.16.840.1.113883.3.464.1003.104.12.1003)"
        },
        "clinicalStatus":"active",
        "verificationStatus":"confirmed",
        "onsetDateTime":"2012-03-01T07:05:00-05:00"
      },
      "request":{
        "method":"PUT",
        "url":"Condition?code=http%3A%2F%2Fhl7.org%2Ffhir%2Fsid%2Ficd-10%7CI20.0%2Chttp%3A%2F%2Fhl7.org%2Ffhir%2Fsid%2Ficd-9%7C411.0%2Chttp%3A%2F%2Fsnomed.info%2Fsct%7C123641001\u0026onset=2012-03-01T07%3A05%3A00\u0026patient=urn%3Auuid%3A1caeaa71-0ac3-4b42-8d15-86b0b2b1cce9"
      }
    },
    {
      "fullUrl":"urn:uuid:bdf1bf53-63ba-4e40-9450-17e0ba2c2f37",
      "resource":{
        "resourceType":"Condition",
        "id":"bdf1bf53-63ba-4e40-9450-17e0ba2c2f37",
        "patient":{
          "reference":"urn:uuid:1caeaa71-0ac3-4b42-8d15-86b0b2b1cce9"
        },
        "code":{
          "coding":[
            {
              "system":"http://snomed.info/sct",
              "code":"10725009"
            },
            {
              "system":"http://hl7.org/fhir/sid/icd-9",
              "code":"401.1"
            }
          ],
          "text":"Diagnosis, Active: Hypertension (Code List: 2.16.840.1.113883.3.464.1003.104.12.1016)"
        },
        "clinicalStatus":"active",
        "verificationStatus":"confirmed",
        "onsetDateTime":"2012-03-01T07:30:00-05:00"
      },
      "request":{
        "method":"PUT",
        "url":"Condition?code=http%3A%2F%2Fhl7.org%2Ffhir%2Fsid%2Ficd-9%7C401.1%2Chttp%3A%2F%2Fsnomed.info%2Fsct%7C10725009\u0026onset=2012-03-01T07%3A30%3A00\u0026patient=urn%3Auuid%3A1caeaa71-0ac3-4b42-8d15-86b0b2b1cce9"
      }
    },
    {
      "fullUrl":"urn:uuid:a3af48b0-5a43-40d6-beaf-e8e12b047575",
      "resource":{
        "resourceType":"Observation",
        "id":"a3af48b0-5a43-40d6-beaf-e8e12b047575",
        "status":"final",
        "code":{
          "coding":[
            {
              "system":"http://loinc.org",
              "code":"17856-6"
            }
          ],
          "text":"Laboratory Test, Result: HbA1c Laboratory Test"
        },
        "subject":{
          "reference":"urn:uuid:1caeaa71-0ac3-4b42-8d15-86b0b2b1cce9"
        },
        "encounter":{
          "reference":"urn:uuid:336e9277-e7d5-4c04-a2c6-910a7dfb704d"
        },
        "effectivePeriod":{
          "start":"2011-11-01T08:16:40-04:00",
          "end":"2011-11-01T08:16:40-04:00"
        },
        "valueQuantity":{
          "value":8,
          "unit":"%"
        }
      },
      "request":{
        "method":"PUT",
        "url":"Observation?code=http%3A%2F%2Floinc.org%7C17856-6\u0026date=sa2011-11-01T08%3A16%3A39\u0026date=lt2011-11-01T08%3A16%3A41\u0026patient=urn%3Auuid%3A1caeaa71-0ac3-4b42-8d15-86b0b2b1cce9\u0026value-quantity=8%7C%7C%25"
      }
    },
    {
      "fullUrl":"urn:uuid:0ca22c46-8538-4549-8f80-dc580a82d3cf",
      "resource":{
        "resourceType":"Procedure",
        "id":"0ca22c46-8538-4549-8f80-dc580a82d3cf",
        "subject":{
          "reference":"urn:uuid:1caeaa71-0ac3-4b42-8d15-86b0b2b1cce9"
        },
        "status":"completed",
        "code":{
          "coding":[
            {
              "system":"http://snomed.info/sct",
              "code":"116783008"
            }
          ],
          "text":"Procedure, Result: Clinical Staging Procedure"
        },
        "performedPeriod":{
          "start":"2011-11-01T08:16:40-04:00",
          "end":"2011-11-01T11:03:20-04:00"
        },
        "encounter":{
          "reference":"urn:uuid:336e9277-e7d5-4c04-a2c6-910a7dfb704d"
        },
        "report":[
          {
            "reference":"urn:uuid:58266f35-abd6-4971-8bff-476231373767"
          }
        ]
      },
      "request":{
        "method":"PUT",
        "url":"Procedure?code=http%3A%2F%2Fsnomed.info%2Fsct%7C116783008\u0026date=sa2011-11-01T08%3A16%3A39\u0026date=lt2011-11-01T08%3A16%3A41\u0026patient=urn%3Auuid%3A1caeaa71-0ac3-4b42-8d15-86b0b2b1cce9"
      }
    },
    {
      "fullUrl":"urn:uuid:58266f35-abd6-4971-8bff-476231373767",
      "resource":{
        "resourceType":"DiagnosticReport",
        "id":"58266f35-abd6-4971-8bff-476231373767",
        "status":"final",
        "code":{
          "coding":[
            {
              "system":"http://loinc.org",
              "code":"59776-5",
              "display":"Procedure findings narrative"
            }
          ],
          "text":"Procedure findings narrative"
        },
        "subject":{
          "reference":"urn:uuid:1caeaa71-0ac3-4b42-8d15-86b0b2b1cce9"
        },
        "encounter":{
          "reference":"urn:uuid:336e9277-e7d5-4c04-a2c6-910a7dfb704d"
        },
        "effectivePeriod":{
          "start":"2011-11-01T08:16:40-04:00",
          "end":"2011-11-01T11:03:20-04:00"
        },
        "issued":"2011-11-01T11:03:20-04:00",
        "result":[
          {
            "reference":"urn:uuid:3330f7aa-1002-4f8c-b5fd-8352f676dc1e"
          },
          {
            "reference":"urn:uuid:f77f0a66-2214-4457-960c-fd76f4a5e87f"
          },
          {
            "reference":"urn:uuid:72b5f0c6-324d-4aa2-a270-c7d476c95c85"
          }
        ]
      },
      "request":{
        "method":"PUT",
        "url":"DiagnosticReport?code=http%3A%2F%2Floinc.org%7C59776-5\u0026date=sa2011-11-01T08%3A16%3A39\u0026date=lt2011-11-01T08%3A16%3A41\u0026patient=urn%3Auuid%3A1caeaa71-0ac3-4b42-8d15-86b0b2b1cce9"
      }
    },
    {
      "fullUrl":"urn:uuid:3330f7aa-1002-4f8c-b5fd-8352f676dc1e",
      "resource":{
        "resourceType":"Observation",
        "id":"3330f7aa-1002-4f8c-b5fd-8352f676dc1e",
        "status":"final",
        "code":{
          "coding":[
            {
              "system":"http://snomed.info/sct",
              "code":"116783008"
            }
          ],
          "text":"Procedure, Result: Clinical Staging Procedure"
        },
        "subject":{
          "reference":"urn:uuid:1caeaa71-0ac3-4b42-8d15-86b0b2b1cce9"
        },
        "encounter":{
          "reference":"urn:uuid:336e9277-e7d5-4c04-a2c6-910a7dfb704d"
        },
        "effectivePeriod":{
          "start":"2011-11-01T08:16:40-04:00",
          "end":"2011-11-01T11:03:20-04:00"
        },
        "valueCodeableConcept":{
          "coding":[
            {
              "system":"http://snomed.info/sct",
              "code":"433581000124101"
            }
          ],
          "text":"Colon Distant Metastasis Status M0"
        }
      },
      "request":{
        "method":"PUT",
        "url":"Observation?code=http%3A%2F%2Fsnomed.info%2Fsct%7C116783008\u0026date=sa2011-11-01T08%3A16%3A39\u0026date=lt2011-11-01T08%3A16%3A41\u0026patient=urn%3Auuid%3A1caeaa71-0ac3-4b42-8d15-86b0b2b1cce9\u0026value-concept=http%3A%2F%2Fsnomed.info%2Fsct%7C433581000124101"
      }
    },
    {
      "fullUrl":"urn:uuid:f77f0a66-2214-4457-960c-fd76f4a5e87f",
      "resource":{
        "resourceType":"Observation",
        "id":"f77f0a66-2214-4457-960c-fd76f4a5e87f",
        "status":"final",
        "code":{
          "coding":[
            {
              "system":"http://snomed.info/sct",
              "code":"116783008"
            }
          ],
          "text":"Procedure, Result: Clinical Staging Procedure"
        },
        "subject":{
          "reference":"urn:uuid:1caeaa71-0ac3-4b42-8d15-86b0b2b1cce9"
        },
        "encounter":{
          "reference":"urn:uuid:336e9277-e7d5-4c04-a2c6-910a7dfb704d"
        },
        "effectivePeriod":{
          "start":"2011-11-01T08:16:40-04:00",
          "end":"2011-11-01T11:03:20-04:00"
        },
        "valueCodeableConcept":{
          "coding":[
            {
              "system":"http://snomed.info/sct",
              "code":"433571000124104"
            }
          ],
          "text":"Colon Cancer Regional Lymph Node Status N2b"
        }
      },
      "request":{
        "method":"PUT",
        "url":"Observation?code=http%3A%2F%2Fsnomed.info%2Fsct%7C116783008\u0026date=sa2011-11-01T08%3A16%3A39\u0026date=lt2011-11-01T08%3A16%3A41\u0026patient=urn%3Auuid%3A1caeaa71-0ac3-4b42-8d15-86b0b2b1cce9\u0026value-concept=http%3A%2F%2Fsnomed.info%2Fsct%7C433571000124104"
      }
    },
    {
      "fullUrl":"urn:uuid:72b5f0c6-324d-4aa2-a270-c7d476c95c85",
      "resource":{
        "resourceType":"Observation",
        "id":"72b5f0c6-324d-4aa2-a270-c7d476c95c85",
        "status":"final",
        "code":{
          "coding":[
            {
              "system":"http://snomed.info/sct",
              "code":"116783008"
            }
          ],
          "text":"Procedure, Result: Clinical Staging Procedure"
        },
        "subject":{
          "reference":"urn:uuid:1caeaa71-0ac3-4b42-8d15-86b0b2b1cce9"
        },
        "encounter":{
          "reference":"urn:uuid:336e9277-e7d5-4c04-a2c6-910a7dfb704d"
        },
        "effectivePeriod":{
          "start":"2011-11-01T08:16:40-04:00",
          "end":"2011-11-01T11:03:20-04:00"
        },
        "valueCodeableConcept":{
          "coding":[
            {
              "system":"http://snomed.info/sct",
              "code":"433491000124102"
            }
          ],
          "text":"Colon Cancer Primary Tumor Size T4a"
        }
      },
      "request":{
        "method":"PUT",
        "url":"Observation?code=http%3A%2F%2Fsnomed.info%2Fsct%7C116783008\u0026date=sa2011-11-01T08%3A16%3A39\u0026date=lt2011-11-01T08%3A16%3A41\u0026patient=urn%3Auuid%3A1caeaa71-0ac3-4b42-8d15-86b0b2b1cce9\u0026value-concept=http%3A%2F%2Fsnomed.info%2Fsct%7C433491000124102"
      }
    },
    {
      "fullUrl":"urn:uuid:6f42bf92-e732-44d1-b5b1-b8b6b86acc92",
      "resource":{
        "resourceType":"Procedure",
        "id":"6f42bf92-e732-44d1-b5b1-b8b6b86acc92",
        "subject":{
          "reference":"urn:uuid:1caeaa71-0ac3-4b42-8d15-86b0b2b1cce9"
        },
        "status":"completed",
        "code":{
          "coding":[
            {
              "system":"http://hl7.org/fhir/sid/icd-9",
              "code":"36.10"
            },
            {
              "system":"http://hl7.org/fhir/sid/icd-10",
              "code":"0210093"
            },
            {
              "system":"http://snomed.info/sct",
              "code":"10190003"
            }
          ],
          "text":"Procedure, Performed: Hospital measures-CABG"
        },
        "performedPeriod":{
          "start":"2013-03-02T10:45:00-05:00",
          "end":"2013-03-02T11:45:00-05:00"
        }
      },
      "request":{
        "method":"PUT",
        "url":"Procedure?code=http%3A%2F%2Fhl7.org%2Ffhir%2Fsid%2Ficd-10%7C0210093%2Chttp%3A%2F%2Fhl7.org%2Ffhir%2Fsid%2Ficd-9%7C36.10%2Chttp%3A%2F%2Fsnomed.info%2Fsct%7C10190003\u0026date=sa2013-03-02T10%3A44%3A59\u0026date=lt2013-03-02T10%3A45%3A01\u0026patient=urn%3Auuid%3A1caeaa71-0ac3-4b42-8d15-86b0b2b1cce9"
      }
    },
    {
      "fullUrl":"urn:uuid:f21918ff-c05a-4c2c-8d17-2613aae3efcd",
      "resource":{
        "resourceType":"MedicationStatement",
        "id":"f21918ff-c05a-4c2c-8d17-2613aae3efcd",
        "patient":{
          "reference":"urn:uuid:1caeaa71-0ac3-4b42-8d15-86b0b2b1cce9"
        },
        "status":"intended",
        "effectivePeriod":{
          "start":"2012-10-01T08:00:00-04:00",
          "end":"2012-10-01T08:00:00-04:00"
        },
        "medicationCodeableConcept":{
          "coding":[
            {
              "system":"http://www.nlm.nih.gov/research/umls/rxnorm/",
              "code":"1000048"
            }
          ],
          "text":"Medication, Order: BH Antidepressant medication (Code List: 2.16.840.1.113883.3.1257.1.972)"
        }
      },
      "request":{
        "method":"PUT",
        "url":"MedicationStatement?code=http%3A%2F%2Fwww.nlm.nih.gov%2Fresearch%2Fumls%2Frxnorm%2F%7C1000048\u0026effectivedate=sa2012-10-01T07%3A59%3A59\u0026effectivedate=lt2012-10-01T08%3A00%3A01\u0026patient=urn%3Auuid%3A1caeaa71-0ac3-4b42-8d15-86b0b2b1cce9"
      }
    },
    {
      "fullUrl":"urn:uuid:61c8f8aa-cbd4-407d-8332-78b57b009b73",
      "resource":{
        "resourceType":"Immunization",
        "id":"61c8f8aa-cbd4-407d-8332-78b57b009b73",
        "status":"completed",
        "date":"2011-08-15T08:00:00-04:00",
        "vaccineCode":{
          "coding":[
            {
              "system":"http://www2a.cdc.gov/vaccines/iis/iisstandards/vaccines.asp?rpt=cvx",
              "code":"33"
            }
          ],
          "text":"Medication, Administered: Pneumococcal Vaccine (Code List: 2.16.840.1.113883.3.464.1003.110.12.1027)"
        },
        "patient":{
          "reference":"urn:uuid:1caeaa71-0ac3-4b42-8d15-86b0b2b1cce9"
        }
      },
      "request":{
        "method":"PUT",
        "url":"Immunization?date=2011-08-15T08%3A00%3A00\u0026patient=urn%3Auuid%3A1caeaa71-0ac3-4b42-8d15-86b0b2b1cce9\u0026vaccine-code=http%3A%2F%2Fwww2a.cdc.gov%2Fvaccines%2Fiis%2Fiisstandards%2Fvaccines.asp%3Frpt%3Dcvx%7C33"
      }
    },
    {
      "fullUrl":"urn:uuid:749523dd-268e-4064-bf66-f1eb89633318",
      "resource":{
        "resourceType":"Immunization",
        "id":"749523dd-268e-4064-bf66-f1eb89633318",
        "status":"completed",
        "date":"2010-01-10T19:08:28-05:00",
        "vaccineCode":{
          "coding":[
            {
              "system":"http://www2a.cdc.gov/vaccines/iis/iisstandards/vaccines.asp?rpt=cvx",
              "code":"03"
            }
          ],
          "text":"MMR"
        },
        "patient":{
          "reference":"urn:uuid:1caeaa71-0ac3-4b42-8d15-86b0b2b1cce9"
        },
        "vaccinationProtocol":[
          {
            "doseSequence":2
          }
        ]
      },
      "request":{
        "method":"PUT",
        "url":"Immunization?date=2010-01-10T19%3A08%3A28\u0026patient=urn%3Auuid%3A1caeaa71-0ac3-4b42-8d15-86b0b2b1cce9\u0026vaccine-code=http%3A%2F%2Fwww2a.cdc.gov%2Fvaccines%2Fiis%2Fiisstandards%2Fvaccines.asp%3Frpt%3Dcvx%7C03"
      }
    },
    {
      "fullUrl":"urn:uuid:1656046c-0cbb-42d1-94ee-041d6c2652a8",
      "resource":{
        "resourceType":"AllergyIntolerance",
        "id":"1656046c-0cbb-42d1-94ee-041d6c2652a8",
        "onset":"2012-01-01T00:42:00-05:00",
        "patient":{
          "reference":"urn:uuid:1caeaa71-0ac3-4b42-8d15-86b0b2b1cce9"
        },
        "substance":{
          "coding":[
            {
              "system":"http://www2a.cdc.gov/vaccines/iis/iisstandards/vaccines.asp?rpt=cvx",
              "code":"111"
            }
          ],
          "text":"Medication, Allergy: Influenza Vaccine (Code List: 2.16.840.1.113883.3.526.3.1254)"
        },
        "status":"active",
        "criticality":"CRITH",
        "reaction":[
          {
            "substance":{
              "coding":[
                {
                  "system":"http://www2a.cdc.gov/vaccines/iis/iisstandards/vaccines.asp?rpt=cvx",
                  "code":"111"
                }
              ],
              "text":"Medication, Allergy: Influenza Vaccine (Code List: 2.16.840.1.113883.3.526.3.1254)"
            },
            "manifestation":[
              {
                "coding":[
                  {
                    "system":"http://snomed.info/sct",
                    "code":"421581006"
                  }
                ]
              }
            ],
            "onset":"2012-01-01T00:42:00-05:00",
            "severity":"severe"
          }
        ]
      },
      "request":{
        "method":"PUT",
        "url":"AllergyIntolerance?onset=2012-01-01T00%3A42%3A00\u0026patient=urn%3Auuid%3A1caeaa71-0ac3-4b42-8d15-86b0b2b1cce9\u0026substance=http%3A%2F%2Fwww2a.cdc.gov%2Fvaccines%2Fiis%2Fiisstandards%2Fvaccines.asp%3Frpt%3Dcvx%7C111"
      }
    }
  ]
}